<Bundle xmlns="http://hl7.org/fhir">
    <id value="2-1-MedicationList-FHIR"/>
    <meta>
        <lastUpdated value="2019-12-17T10:30:38.767+00:00"/>
        <profile value="http://fhir.ch/ig/ch-emed/StructureDefinition/ch-emed-document-medicationlist"/>
    </meta>
    <identifier>
        <system value="urn:ietf:rfc:3986"/>
        <value value="urn:uuid:17931678-20B4-11E6-B67B-9E71128CAE77"/>
    </identifier>
    <type value="document"/>
    <timestamp value="2012-02-04T13:55:00+01:00"/>
    <entry>
        <fullUrl value="http://test.fhir.ch/r4/Composition/Comp-2-1-MedicationList-FHIR"/>
        <resource>
            <Composition xmlns="http://hl7.org/fhir">
                <id value="Comp-2-1-MedicationList-FHIR"/>
                <meta>
                    <versionId value="1"/>
                    <lastUpdated value="2019-12-17T10:30:04.599+00:00"/>
                    <profile value="http://fhir.ch/ig/ch-emed/StructureDefinition/ch-emed-composition-medicationlist"/>
                </meta>
                <language value="de-CH"/>
                <extension url="http://fhir.ch/ig/ch-core/StructureDefinition/ch-ext-epr-setid">
                    <valueIdentifier>
                        <system value="urn:ietf:rfc:3986"/>
                        <value value="urn:uuid:17931678-20B4-11E6-B67B-9E71128CAE77"/>
                    </valueIdentifier>
                </extension>
                <extension url="http://fhir.ch/ig/ch-core/StructureDefinition/ch-ext-epr-versionnumber">
                    <valueInteger value="1"/>
                </extension>
                <extension url="http://fhir.ch/ig/ch-core/StructureDefinition/ch-ext-epr-informationrecipient">
                    <valueReference>
                        <reference value="Patient/MonikaWegmuellerRecipient"/>
                    </valueReference>
                </extension>
                <identifier>
                    <system value="urn:ietf:rfc:3986"/>
                    <value value="urn:uuid:17931678-20B4-11E6-B67B-9E71128CAE77"/>
                </identifier>
                <status value="final"/>
                <type>
                    <coding>
                        <system value="http://loinc.org"/>
                        <code value="56445-0"/>
                        <display value="Medication summary"/>
                    </coding>
                    <coding>
                        <system value="http://snomed.info/sct"/>
                        <code value="721912009"/>
                        <display value="Medication summary document (record artifact)"/>
                    </coding>
                </type>
                <subject>
                    <reference value="Patient/MonikaWegmueller"/>
                </subject>
                <date value="2012-02-04T13:55:00+01:00"/>
                <author>
                    <reference value="Practitioner/FamilienHausarzt"/>
                </author>
                <title value="Medikationsliste"/>
                <confidentiality value="N">
                    <extension url="http://fhir.ch/ig/ch-core/StructureDefinition/ch-ext-epr-confidentialitycode">
                        <valueCodeableConcept>
                            <coding>
                                <system value="http://snomed.info/sct"/>
                                <code value="17621005"/>
                                <display value="Normal"/>
                            </coding>
                        </valueCodeableConcept>
                    </extension>
                </confidentiality>
                <custodian>
                    <reference value="Organization/Hausarzt"/>
                </custodian>
                <section>
                    <title value="Medikamentenliste"/>
                    <code>
                        <coding>
                            <system value="http://loinc.org"/>
                            <code value="10160-0"/>
                            <display value="History of medication use"/>
                        </coding>
                    </code>
                    <!-- TBD: Text mit Tooling -->
                    <text>
                        <status value="additional"/>
                        <div xmlns="http://www.w3.org/1999/xhtml"> TBD </div>
                    </text>
                    <entry>
                        <reference value="MedicationStatement/MedStatTriatec"/>
                    </entry>
                </section>
            </Composition>
        </resource>
    </entry>
    <entry>
        <fullUrl value="http://test.fhir.ch/r4/Practitioner/FamilienHausarzt"/>
        <resource>
            <Practitioner xmlns="http://hl7.org/fhir">
                <id value="FamilienHausarzt"/>
                <meta>
                    <versionId value="4"/>
                    <lastUpdated value="2019-12-12T08:24:15.078+00:00"/>
                    <profile value="http://fhir.ch/ig/ch-core/StructureDefinition/ch-core-practitioner-epr"/>
                </meta>
                <identifier>
                    <system value="urn:oid:2.51.1.3"/>
                    <value value="7601000234438"/>
                </identifier>
                <name>
                    <family value="Hausarzt"/>
                    <given value="Familien"/>
                </name>
                <address>
                    <line value="Krankenstrasse 2"/>
                    <city value="Zürich"/>
                    <postalCode value="8005"/>
                </address>
            </Practitioner>
        </resource>
    </entry>
    <entry>
        <fullUrl value="http://test.fhir.ch/r4/Organization/Hausarzt"/>
        <resource>
            <Organization xmlns="http://hl7.org/fhir">
                <id value="Hausarzt"/>
                <meta>
                    <versionId value="4"/>
                    <lastUpdated value="2019-12-12T08:25:25.831+00:00"/>
                    <profile value="http://fhir.ch/ig/ch-core/StructureDefinition/ch-core-organization-epr"/>
                </meta>
                <identifier>
                    <system value="urn:oid:2.51.1.3"/>
                    <value value="7601000234438"/>
                </identifier>
                <name value="Hausarzt"/>
            </Organization>
        </resource>
    </entry>
    <entry>
        <fullUrl value="http://test.fhir.ch/r4/Patient/MonikaWegmueller"/>
        <resource>
            <Patient xmlns="http://hl7.org/fhir">
                <id value="MonikaWegmueller"/>
                <meta>
                    <versionId value="2"/>
                    <lastUpdated value="2019-12-09T17:18:37.829+00:00"/>
                    <profile value="http://fhir.ch/ig/ch-core/StructureDefinition/ch-core-composition-patient-epr"/>
                </meta>
                <identifier>
                    <type>
                        <coding>
                            <system value="http://terminology.hl7.org/CodeSystem/v2-0203"/>
                            <code value="MR"/>
                        </coding>
                    </type>
                    <system value="urn:oid:2.999"/>
                    <value value="11111111"/>
                </identifier>
                <name>
                    <family value="Wegmüller"/>
                    <given value="Monika"/>
                </name>
                <gender value="female"/>
                <birthDate value="1943-05-15"/>
                <address>
                    <line value="Wiesenstr. 12"/>
                    <city value="Zürich"/>
                    <postalCode value="8003"/>
                    <country value="CH"/>
                </address>
            </Patient>
        </resource>
    </entry>
    <entry>
        <fullUrl value="http://test.fhir.ch/r4/MedicationStatement/MedStatTriatec"/>
        <resource>
            <MedicationStatement xmlns="http://hl7.org/fhir">
                <id value="MedStatTriatec"/>
                <meta>
                    <versionId value="1"/>
                    <lastUpdated value="2019-12-13T12:30:35.743+00:00"/>
                    <profile value="http://fhir.ch/ig/ch-emed/StructureDefinition/ch-emed-medicationstatement"/>
                </meta>
                <contained>
                    <Medication xmlns="http://hl7.org/fhir">
                        <id value="Triatec"/>
                        <meta>
                            <profile value="http://fhir.ch/ig/ch-emed/StructureDefinition/ch-emed-medication-medicationstatement"/>
                        </meta>
                        <code>
                            <coding>
                                <system value="urn:oid:2.51.1.1"/>
                                <code value="7680538751228"/>
                                <display value="TRIATEC Tabl 2.5 mg 100 Stk"/>
                            </coding>
                            <text value="TRIATEC Tabl 2.5 mg"/>
                        </code>
                        <form>
                            <coding>
                                <system value="urn:oid:0.4.0.127.0.16.1.1.2.1"/>
                                <code value="10219000"/>
                                <display value="Tablet"/>
                            </coding>
                        </form>
                        <ingredient>
                            <itemCodeableConcept>
                                <coding>
                                    <system value="urn:oid:2.16.840.1.113883.6.73"/>
                                    <code value="C09AA05"/>
                                    <display value="ramipril"/>
                                </coding>
                                <text value="ramipril"/>
                            </itemCodeableConcept>
                            <strength>
                                <numerator>
                                    <value value="2.5"/>
                                    <unit value="milligram"/>
                                    <system value="http://unitsofmeasure.org"/>
                                    <code value="mg"/>
                                </numerator>
                                <denominator>
                                    <value value="1"/>
                                    <unit value="tablets"/>
                                    <system value="http://unitsofmeasure.org"/>
                                    <code value="1"/>
                                </denominator>
                            </strength>
                        </ingredient>
                    </Medication>
                </contained>
                <status value="completed"/>
                <medicationReference>
                    <reference value="#Triatec"/>
                </medicationReference>
                <subject>
                    <reference value="Patient/MonikaWegmueller"/>
                </subject>
                <reasonCode>
                    <text value="Bluthochdruck"/>
                </reasonCode>
                <dosage>
                    <text value="Morgens 1/2 Tablette nehmen"/>
                    <timing>
                        <repeat>
                            <boundsPeriod>
                                <start value="2011-11-29"/>
                            </boundsPeriod>
                            <when value="ACM"/>
                        </repeat>
                    </timing>
                    <route>
                        <coding>
                            <system value="urn:oid:0.4.0.127.0.16.1.1.2.1"/>
                            <code value="20053000"/>
                            <display value="Oral use"/>
                        </coding>
                    </route>
                    <doseAndRate>
                        <doseQuantity>
                            <value value="0.5"/>
                        </doseQuantity>
                    </doseAndRate>
                </dosage>
            </MedicationStatement>
        </resource>
    </entry>
</Bundle>