<Bundle xmlns="http://hl7.org/fhir">
    <id value="2-4-MedicationDispense-FHIR"/>
    <meta>
        <lastUpdated value="2019-10-29T06:41:52.616+00:00"/>
        <profile value="http://fhir.ch/ig/ch-emed/StructureDefinition/ch-emed-document-medicationdispense"/>
    </meta>
    <identifier>
        <system value="urn:ietf:rfc:3986"/>
        <value value="urn:uuid:D8143FEA-4778-11E6-BEB8-9E71128CAE77"/>
    </identifier>
    <type value="document"/>
    <timestamp value="2019-10-29T06:41:52.616+00:00"/>
    <entry>
        <fullUrl value="http://test.fhir.ch/r4/Composition/Comp-2-4-MedicationDispense-FHIR"/>
        <resource>
            <Composition xmlns="http://hl7.org/fhir">
                <id value="Comp-2-4-MedicationDispense-FHIR"/>
                <meta>
                    <versionId value="1"/>
                    <lastUpdated value="2019-10-29T06:39:53.986+00:00"/>
                    <profile value="http://fhir.ch/ig/ch-emed/StructureDefinition/ch-emed-composition-medicationdispense"/>
                </meta>
                <language value="de-CH"/>
                <extension url="http://hl7.org/fhir/StructureDefinition/composition-clinicaldocument-versionNumber">
                    <valueString value="1"/>
                </extension>
                <extension url="http://fhir.ch/ig/ch-core/StructureDefinition/ch-ext-informationrecipient">
                    <valueReference>
                        <reference value="Patient/MonikaWegmuellerRecipient"/>
                    </valueReference>
                </extension>
                <status value="final"/>
                <type>
                    <!-- TBD: Translation to SNOMED CT -->
                    <coding>
                        <system value="http://loinc.org"/>
                        <code value="60593-1"/>
                        <display value="Medication dispensed.extended Doc"/>
                    </coding>
                </type>
                <subject>
                    <reference value="Patient/MonikaWegmueller"/>
                </subject>
                <date value="2012-02-04T14:00:00+01:00"/>
                <author>
                    <reference value="Practitioner/FamilienHausarzt"/>
                </author>
                <title value="Abgabe"/>
                <confidentiality value="N">
                    <extension url="http://fhir.ch/ig/ch-core/StructureDefinition/ch-ext-epr-confidentialitycode">
                        <valueCodeableConcept>
                            <coding>
                                <system value="http://snomed.info/sct"/>
                                <code value="17621005"/>
                                <display value="Normal"/>
                            </coding>
                        </valueCodeableConcept>
                    </extension>
                </confidentiality>
                <custodian>
                    <reference value="Organization/Hausarzt"/>
                </custodian>
                <section>
                    <title value="Abgabe eines Medikaments"/>
                    <!-- TBD: Text mit Tooling -->
                    <code>
                        <coding>
                            <system value="http://loinc.org"/>
                            <code value="60590-7"/>
                            <display value="Medication dispensed.brief Doc"/>
                        </coding>
                    </code>
                    <entry>
                        <reference value="MedicationDispense/MedDispBeloczok"/>
                    </entry>
                </section>
                <section>
                    <title value="Kommentar"/>
                    <!-- TBD: Text mit Tooling -->
                    <code>
                        <coding>
                            <system value="http://loinc.org"/>
                            <code value="48767-8"/>
                            <display value="Annotation comment Imp"/>
                        </coding>
                    </code>
                    <text>
                        <status value="additional"/>
                        <div xmlns="http://www.w3.org/1999/xhtml"> Allgemeine Bemerkungen </div>
                    </text>
                </section>
            </Composition>
        </resource>
    </entry>
    <entry>
        <fullUrl value="http://test.fhir.ch/r4/Patient/MonikaWegmueller"/>
        <resource>
            <Patient xmlns="http://hl7.org/fhir">
                <id value="MonikaWegmueller"/>
                <meta>
                    <versionId value="2"/>
                    <lastUpdated value="2019-10-21T17:17:59.039+00:00"/>
                    <profile value="http://fhir.ch/ig/ch-core/StructureDefinition/ch-core-patient"/>
                </meta>
                <identifier>
                    <type>
                        <coding>
                            <system value="http://terminology.hl7.org/CodeSystem/v2-0203"/>
                            <code value="MR"/>
                        </coding>
                    </type>
                    <system value="urn:oid:2.999"/>
                    <value value="11111111"/>
                </identifier>
                <name>
                    <family value="Wegm端ller"/>
                    <given value="Monika"/>
                </name>
                <gender value="female"/>
                <birthDate value="1943-05-15"/>
            </Patient>
        </resource>
    </entry>
    <entry>
        <fullUrl value="http://test.fhir.ch/r4/Practitioner/FamilienHausarzt"/>
        <resource>
            <Practitioner xmlns="http://hl7.org/fhir">
                <id value="FamilienHausarzt"/>
                <meta>
                    <versionId value="2"/>
                    <lastUpdated value="2019-10-21T17:18:04.341+00:00"/>
                    <profile value="http://fhir.ch/ig/ch-core/StructureDefinition/ch-core-practitioner"/>
                </meta>
                <identifier>
                    <system value="urn:oid:2.51.1.3"/>
                    <value value="7601000234438"/>
                </identifier>
                <name>
                    <family value="Hausarzt"/>
                    <given value="Familien"/>
                </name>
                <address>
                    <line value="Krankenstrasse 2"/>
                    <city value="Z端rich"/>
                    <postalCode value="8005"/>
                </address>
            </Practitioner>
        </resource>
    </entry>
    <entry>
        <fullUrl value="http://test.fhir.ch/r4/MedicationDispense/MedDispBeloczok"/>
        <resource>
            <MedicationDispense xmlns="http://hl7.org/fhir">
                <id value="MedDispBeloczok"/>
                <meta>
                    <versionId value="1"/>
                    <lastUpdated value="2019-10-29T06:38:48.887+00:00"/>
                    <profile value="http://fhir.ch/ig/ch-emed/StructureDefinition/ch-emed-medicationdispense"/>
                </meta>
                <extension url="http://fhir.ch/ig/ch-emed/StructureDefinition/ch-emed-medicationrequest-treatmentplan">
                    <extension url="externalDocumentId">
                        <valueString value="urn:uuid:5712fffe-20c6-11e6-b67b-9e71128cae77"/>
                    </extension>
                    <extension url="medicationTreatmentPlanId">
                        <valueString value="urn:uuid:5712fffe-20c6-11e6-b67b-9e71128cae77"/>
                    </extension>
                </extension>
                <status value="completed"/>
                <medicationReference>
                    <reference value="Medication/Beloczok"/>
                </medicationReference>
                <subject>
                    <reference value="Patient/MonikaWegmueller"/>
                </subject>
                <quantity>
                    <value value="1"/>
                    <unit value="1"/>
                </quantity>
                <dosageInstruction>
                    <text value="Morgens 1 St端ck"/>
                    <timing>
                        <repeat>
                            <boundsPeriod>
                                <start value="2012-02-04"/>
                            </boundsPeriod>
                            <when value="ACM"/>
                        </repeat>
                    </timing>
                    <route>
                        <coding>
                            <system value="urn:oid:0.4.0.127.0.16.1.1.2.1"/>
                            <code value="20053000"/>
                            <display value="Oral use"/>
                        </coding>
                    </route>
                    <doseAndRate>
                        <doseQuantity>
                            <value value="1"/>
                            <unit value="Tablette"/>
                        </doseQuantity>
                    </doseAndRate>
                </dosageInstruction>
                <dosageInstruction>
                    <text value="Abends 0.5 St端ck"/>
                    <timing>
                        <repeat>
                            <boundsPeriod>
                                <start value="2012-02-04"/>
                            </boundsPeriod>
                            <when value="ACV"/>
                        </repeat>
                    </timing>
                    <route>
                        <coding>
                            <system value="urn:oid:0.4.0.127.0.16.1.1.2.1"/>
                            <code value="20053000"/>
                            <display value="Oral use"/>
                        </coding>
                    </route>
                    <doseAndRate>
                        <doseQuantity>
                            <value value="0.5"/>
                            <unit value="Tablette"/>
                        </doseQuantity>
                    </doseAndRate>
                </dosageInstruction>
            </MedicationDispense>
        </resource>
    </entry>
    <entry>
        <fullUrl value="http://test.fhir.ch/r4/Medication/Beloczok"/>
        <resource>
            <Medication xmlns="http://hl7.org/fhir">
                <id value="Beloczok"/>
                <meta>
                    <versionId value="1"/>
                    <lastUpdated value="2019-10-29T06:37:14.898+00:00"/>
                    <profile value="http://fhir.ch/ig/ch-emed/StructureDefinition/ch-emed-medication-medicationdispense"/>
                </meta>
                <code>
                    <coding>
                        <system value="urn:oid:2.51.1.1"/>
                        <code value="7680521101306"/>
                        <display value="BELOC ZOK Ret Tabl 50 mg 30 Stk"/>
                    </coding>
                    <text value="BELOC ZOK Ret Tabl 50 mg"/>
                </code>
                <form>
                    <coding>
                        <system value="urn:oid:0.4.0.127.0.16.1.1.2.1"/>
                        <code value="10219000"/>
                        <display value="Tablet"/>
                    </coding>
                </form>
                <amount>
                    <numerator>
                        <value value="30"/>
                        <unit value="tbl"/>
                        <system value="http://unitsofmeasure.org"/>
                        <code value="tbl"/>
                    </numerator>
                    <denominator>
                        <value value="1"/>
                        <system value="http://terminology.hl7.org/CodeSystem/medicationknowledge-package-type"/>
                        <code value="pkt"/>
                    </denominator>
                </amount>
                <ingredient>
                    <itemCodeableConcept>
                        <coding>
                            <system value="urn:oid:2.16.840.1.113883.6.73"/>
                            <code value="C07AB02"/>
                            <display value="Metoprolol"/>
                        </coding>
                        <text value="Metoprolol"/>
                    </itemCodeableConcept>
                    <strength>
                        <numerator>
                            <value value="50"/>
                            <unit value="mg"/>
                            <system value="http://unitsofmeasure.org"/>
                            <code value="mg"/>
                        </numerator>
                        <denominator>
                            <value value="1"/>
                            <unit value="tbl"/>
                            <system value="http://unitsofmeasure.org"/>
                            <code value="{tbl}"/>
                        </denominator>
                    </strength>
                </ingredient>
            </Medication>
        </resource>
    </entry>
</Bundle>