<Bundle xmlns="http://hl7.org/fhir">
   <id value="2-6-MedicationPrescription-FHIR"/>
   <meta>
      <lastUpdated value="2019-10-29T06:40:26.623+00:00"/>
      <profile value="http://fhir.ch/ig/ch-emed/StructureDefinition/ch-emed-document-medicationprescription"/>
   </meta>
   <identifier>
      <system value="urn:ietf:rfc:3986"/>
      <value value="urn:uuid:D41D72BA-2100-11E6-B67B-9E71128CAE77"/>
   </identifier>
   <type value="document"/>
   <timestamp value="2019-10-29T06:40:26.623+00:00"/>
   <entry>
      <fullUrl value="http://test.fhir.ch/r4/Composition/Comp-2-6-MedicationPrescription-FHIR"/>
      <resource>
         <Composition xmlns="http://hl7.org/fhir">
            <id value="Comp-2-6-MedicationPrescription-FHIR"/>
            <meta>
               <versionId value="1"/>
               <lastUpdated value="2019-10-29T06:39:50.197+00:00"/>
               <profile value="http://fhir.ch/ig/ch-emed/StructureDefinition/ch-emed-composition-medicationprescription"/>
            </meta>
            <language value="de-CH"/>
            <extension url="http://hl7.org/fhir/StructureDefinition/composition-clinicaldocument-versionNumber">
               <valueString value="1"/>
            </extension>
            <extension url="http://fhir.ch/ig/ch-core/StructureDefinition/ch-ext-informationrecipient">
               <valueReference>
                  <reference value="Patient/MonikaWegmuellerRecipient"/>
               </valueReference>
            </extension>
            <status value="final"/>
            <type>
               <!-- TBD: Translation to SNOMED CT -->
               <coding>
                  <system value="http://loinc.org"/>
                  <code value="57833-6"/>
                  <display value="Prescription for medication"/>
               </coding>
            </type>
            <subject>
               <reference value="Patient/MonikaWegmueller"/>
            </subject>
            <date value="2012-02-04T14:00:00+01:00"/>
            <author>
               <reference value="Practitioner/FamilienHausarzt"/>
            </author>
            <title value="Rezept"/>
            <confidentiality value="N">
               <extension url="http://fhir.ch/ig/ch-core/StructureDefinition/ch-ext-epr-confidentialitycode">
                  <valueCodeableConcept>
                     <coding>
                        <system value="http://snomed.info/sct"/>
                        <code value="17621005"/>
                        <display value="Normal"/>
                     </coding>
                  </valueCodeableConcept>
               </extension>
            </confidentiality>
            <custodian>
               <reference value="Organization/Hausarzt"/>
            </custodian>
            <section>
               <title value="Arzneimittelverordnung"/>
               <!-- TBD: Text mit Tooling -->
               <code>
                  <coding>
                     <system value="http://loinc.org"/>
                     <code value="57828-6"/>
                     <display value="PRESCRIPTIONS"/>
                  </coding>
               </code>
               <entry>
                  <reference value="MedicationRequest/MedReqNorvasc"/>
               </entry>
            </section>
            <section>
               <title value="Kommentar"/>
               <!-- TBD: Text mit Tooling -->
               <code>
                  <coding>
                     <system value="http://loinc.org"/>
                     <code value="48767-8"/>
                     <display value="Annotation comment Imp"/>
                  </coding>
               </code>
               <text>
                  <status value="additional"/>
                  <div xmlns="http://www.w3.org/1999/xhtml"> Allgemeine Bemerkungen </div>
               </text>
            </section>
         </Composition>
      </resource>
   </entry>
   <entry>
      <fullUrl value="http://test.fhir.ch/r4/Patient/MonikaWegmueller"/>
      <resource>
         <Patient xmlns="http://hl7.org/fhir">
            <id value="MonikaWegmueller"/>
            <meta>
               <versionId value="2"/>
               <lastUpdated value="2019-10-21T17:17:59.039+00:00"/>
               <profile value="http://fhir.ch/ig/ch-core/StructureDefinition/ch-core-patient"/>
            </meta>
            <identifier>
               <type>
                  <coding>
                     <system value="http://terminology.hl7.org/CodeSystem/v2-0203"/>
                     <code value="MR"/>
                  </coding>
               </type>
               <system value="urn:oid:2.999"/>
               <value value="11111111"/>
            </identifier>
            <name>
               <family value="Wegmüller"/>
               <given value="Monika"/>
            </name>
            <gender value="female"/>
            <birthDate value="1943-05-15"/>
         </Patient>
      </resource>
   </entry>
   <entry>
      <fullUrl value="http://test.fhir.ch/r4/Practitioner/FamilienHausarzt"/>
      <resource>
         <Practitioner xmlns="http://hl7.org/fhir">
            <id value="FamilienHausarzt"/>
            <meta>
               <versionId value="2"/>
               <lastUpdated value="2019-10-21T17:18:04.341+00:00"/>
               <profile value="http://fhir.ch/ig/ch-core/StructureDefinition/ch-core-practitioner"/>
            </meta>
            <identifier>
               <system value="urn:oid:2.51.1.3"/>
               <value value="7601000234438"/>
            </identifier>
            <name>
               <family value="Hausarzt"/>
               <given value="Familien"/>
            </name>
            <address>
               <line value="Krankenstrasse 2"/>
               <city value="Zürich"/>
               <postalCode value="8005"/>
            </address>
         </Practitioner>
      </resource>
   </entry>
   <entry>
      <fullUrl value="http://test.fhir.ch/r4/MedicationRequest/MedReqNorvasc"/>
      <resource>
         <MedicationRequest xmlns="http://hl7.org/fhir">
            <id value="MedReqNorvasc"/>
            <meta>
               <versionId value="3"/>
               <lastUpdated value="2019-10-29T06:38:08.027+00:00"/>
               <profile value="http://fhir.ch/ig/ch-emed/StructureDefinition/ch-emed-medicationrequest"/>
            </meta>
            <extension url="http://fhir.ch/ig/ch-emed/StructureDefinition/ch-emed-medicationrequest-treatmentplan">
               <extension url="externalDocumentId">
                  <valueString value="urn:uuid:5712fffe-20c6-11e6-b67b-9e71128cae77"/>
               </extension>
               <extension url="medicationTreatmentPlanId">
                  <valueString value="urn:uuid:5712fffe-20c6-11e6-b67b-9e71128cae77"/>
               </extension>
            </extension>
            <status value="completed"/>
            <intent value="order"/>
            <medicationReference>
               <reference value="Medication/Norvasc"/>
            </medicationReference>
            <subject>
               <reference value="Patient/MonikaWegmueller"/>
            </subject>
            <dosageInstruction>
               <text value="Morgens und abends je 1 Tablette nehmen"/>
               <timing>
                  <repeat>
                     <boundsPeriod>
                        <start value="2012-02-04"/>
                     </boundsPeriod>
                     <when value="ACM"/>
                     <when value="ACV"/>
                  </repeat>
               </timing>
               <route>
                  <coding>
                     <system value="urn:oid:0.4.0.127.0.16.1.1.2.1"/>
                     <code value="20053000"/>
                     <display value="Oral use"/>
                  </coding>
               </route>
               <doseAndRate>
                  <doseQuantity>
                     <value value="1"/>
                     <unit value="tablets"/>
                     <system value="http://unitsofmeasure.org"/>
                     <code value="1"/>
                  </doseQuantity>
               </doseAndRate>
            </dosageInstruction>
            <dispenseRequest>
               <numberOfRepeatsAllowed value="2"/>
            </dispenseRequest>
         </MedicationRequest>
      </resource>
   </entry>
   <entry>
      <fullUrl value="http://test.fhir.ch/r4/Medication/Norvasc"/>
      <resource>
         <Medication xmlns="http://hl7.org/fhir">
            <id value="Norvasc"/>
            <meta>
               <versionId value="2"/>
               <lastUpdated value="2019-10-29T06:37:19.994+00:00"/>
               <profile value="http://fhir.ch/ig/ch-emed/StructureDefinition/ch-emed-medication-medicationrequest"/>
            </meta>
            <code>
               <coding>
                  <system value="urn:oid:2.51.1.1"/>
                  <code value="7680500440334"/>
                  <display value="NORVASC Tabl 10 mg"/>
               </coding>
               <text value="NORVASC"/>
            </code>
            <form>
               <coding>
                  <system value="urn:oid:0.4.0.127.0.16.1.1.2.1"/>
                  <code value="10219000"/>
                  <display value="Tablet"/>
               </coding>
            </form>
            <amount>
               <numerator>
                  <value value="30"/>
                  <unit value="tablets"/>
                  <system value="http://unitsofmeasure.org"/>
                  <code value="1"/>
               </numerator>
               <denominator>
                  <value value="1"/>
                  <system value="http://terminology.hl7.org/CodeSystem/medicationknowledge-package-type"/>
                  <code value="pkt"/>
               </denominator>
            </amount>
            <ingredient>
               <itemCodeableConcept>
                  <coding>
                     <system value="urn:oid:2.16.840.1.113883.6.73"/>
                     <code value="C08CA01"/>
                     <display value="amlodipine"/>
                  </coding>
                  <text value="Amlodipine"/>
               </itemCodeableConcept>
               <strength>
                  <numerator>
                     <value value="10"/>
                     <unit value="mg"/>
                     <system value="http://unitsofmeasure.org"/>
                     <code value="mg"/>
                  </numerator>
                  <denominator>
                     <value value="1"/>
                     <unit value="tablets"/>
                     <system value="http://unitsofmeasure.org"/>
                     <code value="1"/>
                  </denominator>
               </strength>
            </ingredient>
         </Medication>
      </resource>
   </entry>
</Bundle>