<Bundle xmlns="http://hl7.org/fhir">
    <id value="2-7-MedicationCard-FHIR"/>
    <meta>
        <lastUpdated value="2019-10-29T06:43:21.021+00:00"/>
        <profile value="http://fhir.ch/ig/ch-emed/StructureDefinition/ch-emed-document-medicationcard"/>
    </meta>
    <identifier>
        <system value="urn:ietf:rfc:3986"/>
        <value value="urn:uuid:6B6ED376-A7DA-44CB-92D1-E75CE1AE73B0"/>
    </identifier>
    <type value="document"/>
    <entry>
        <fullUrl value="http://test.fhir.ch/r4/Composition/Comp-2-7-MedicationCard-FHIR"/>
        <resource>
            <Composition xmlns="http://hl7.org/fhir">
                <id value="Comp-2-7-MedicationCard-FHIR"/>
                <meta>
                    <versionId value="1"/>
                    <lastUpdated value="2019-10-29T06:39:58.910+00:00"/>
                    <profile value="http://fhir.ch/ig/ch-emed/StructureDefinition/ch-emed-composition-medicationcard"/>
                </meta>
                <language value="de-CH"/>
                <extension url="http://hl7.org/fhir/StructureDefinition/composition-clinicaldocument-versionNumber">
                    <valueString value="1"/>
                </extension>
                <extension url="http://fhir.ch/ig/ch-core/StructureDefinition/ch-ext-informationrecipient">
                    <valueReference>
                        <reference value="Patient/MonikaWegmuellerRecipient"/>
                    </valueReference>
                </extension>
                <status value="final"/>
                <type>
                    <!-- TBD: Translation to SNOMED CT -->
                    <coding>
                        <system value="http://loinc.org"/>
                        <code value="56445-0"/>
                        <display value="Medication summary Doc"/>
                    </coding>
                </type>
                <subject>
                    <reference value="Patient/MonikaWegmueller"/>
                </subject>
                <date value="2012-02-04T14:05:00+01:00"/>
                <author>
                    <reference value="Practitioner/FamilienHausarzt"/>
                </author>
                <title value="Medikationsplan"/>
                <confidentiality value="N">
                    <extension url="http://fhir.ch/ig/ch-core/StructureDefinition/ch-ext-epr-confidentialitycode">
                        <valueCodeableConcept>
                            <coding>
                                <system value="http://snomed.info/sct"/>
                                <code value="17621005"/>
                                <display value="Normal"/>
                            </coding>
                        </valueCodeableConcept>
                    </extension>
                </confidentiality>
                <custodian>
                    <reference value="Organization/Hausarzt"/>
                </custodian>
                <section>
                    <title value="Medikamentenliste"/>
                    <!-- TBD: Text mit Tooling -->
                    <code>
                        <coding>
                            <system value="http://loinc.org"/>
                            <code value="10160-0"/>
                            <display value="Hx of Medication use"/>
                        </coding>
                    </code>
                    <entry>
                        <reference value="MedicationStatement/MedStatBeloczok"/>
                    </entry>
                    <entry>
                        <reference value="MedicationStatement/MedStatNorvasc"/>
                    </entry>
                </section>
                <section>
                    <title value="Kommentar"/>
                    <!-- TBD: Text mit Tooling -->
                    <code>
                        <coding>
                            <system value="http://loinc.org"/>
                            <code value="48767-8"/>
                            <display value="Annotation comment Imp"/>
                        </coding>
                    </code>
                    <text>
                        <status value="additional"/>
                        <div xmlns="http://www.w3.org/1999/xhtml"> Allgemeine Bemerkungen </div>
                    </text>
                </section>
            </Composition>
        </resource>
    </entry>
    <entry>
        <fullUrl value="http://test.fhir.ch/r4/Patient/MonikaWegmueller"/>
        <resource>
            <Patient xmlns="http://hl7.org/fhir">
                <id value="MonikaWegmueller"/>
                <meta>
                    <versionId value="2"/>
                    <lastUpdated value="2019-10-21T17:17:59.039+00:00"/>
                    <profile value="http://fhir.ch/ig/ch-core/StructureDefinition/ch-core-patient"/>
                </meta>
                <identifier>
                    <type>
                        <coding>
                            <system value="http://terminology.hl7.org/CodeSystem/v2-0203"/>
                            <code value="MR"/>
                        </coding>
                    </type>
                    <system value="urn:oid:2.999"/>
                    <value value="11111111"/>
                </identifier>
                <name>
                    <family value="Wegm端ller"/>
                    <given value="Monika"/>
                </name>
                <gender value="female"/>
                <birthDate value="1943-05-15"/>
            </Patient>
        </resource>
    </entry>
    <entry>
        <fullUrl value="http://test.fhir.ch/r4/Practitioner/FamilienHausarzt"/>
        <resource>
            <Practitioner xmlns="http://hl7.org/fhir">
                <id value="FamilienHausarzt"/>
                <meta>
                    <versionId value="2"/>
                    <lastUpdated value="2019-10-21T17:18:04.341+00:00"/>
                    <profile value="http://fhir.ch/ig/ch-core/StructureDefinition/ch-core-practitioner"/>
                </meta>
                <identifier>
                    <system value="urn:oid:2.51.1.3"/>
                    <value value="7601000234438"/>
                </identifier>
                <name>
                    <family value="Hausarzt"/>
                    <given value="Familien"/>
                </name>
                <address>
                    <line value="Krankenstrasse 2"/>
                    <city value="Z端rich"/>
                    <postalCode value="8005"/>
                </address>
            </Practitioner>
        </resource>
    </entry>
    <entry>
        <fullUrl value="http://test.fhir.ch/r4/MedicationStatement/MedStatBeloczok"/>
        <resource>
            <MedicationStatement xmlns="http://hl7.org/fhir">
                <id value="MedStatBeloczok"/>
                <meta>
                    <versionId value="1"/>
                    <lastUpdated value="2019-10-29T06:39:28.008+00:00"/>
                    <profile value="http://fhir.ch/ig/ch-emed/StructureDefinition/ch-emed-medicationstatement"/>
                </meta>
                <status value="completed"/>
                <medicationReference>
                    <reference value="Medication/Beloczok"/>
                </medicationReference>
                <subject>
                    <reference value="Patient/MonikaWegmueller"/>
                </subject>
                <reasonCode>
                    <text value="Bluthochdruck"/>
                </reasonCode>
                <dosage>
                    <text value="Morgens 1 St端ck"/>
                    <timing>
                        <repeat>
                            <boundsPeriod>
                                <start value="2012-02-04"/>
                            </boundsPeriod>
                            <when value="ACM"/>
                        </repeat>
                    </timing>
                    <route>
                        <coding>
                            <system value="urn:oid:0.4.0.127.0.16.1.1.2.1"/>
                            <code value="20053000"/>
                            <display value="Oral use"/>
                        </coding>
                    </route>
                    <doseAndRate>
                        <doseQuantity>
                            <value value="1"/>
                            <unit value="Tablette"/>
                        </doseQuantity>
                    </doseAndRate>
                </dosage>
                <dosage>
                    <text value="Abends 0.5 St端ck"/>
                    <timing>
                        <repeat>
                            <boundsPeriod>
                                <start value="2012-02-04"/>
                            </boundsPeriod>
                            <when value="ACV"/>
                        </repeat>
                    </timing>
                    <route>
                        <coding>
                            <system value="urn:oid:0.4.0.127.0.16.1.1.2.1"/>
                            <code value="20053000"/>
                            <display value="Oral use"/>
                        </coding>
                    </route>
                    <doseAndRate>
                        <doseQuantity>
                            <value value="0.5"/>
                            <unit value="Tablette"/>
                        </doseQuantity>
                    </doseAndRate>
                </dosage>
            </MedicationStatement>
        </resource>
    </entry>
    <entry>
        <fullUrl value="http://test.fhir.ch/r4/MedicationStatement/MedStatNorvasc"/>
        <resource>
            <MedicationStatement xmlns="http://hl7.org/fhir">
                <id value="MedStatNorvasc"/>
                <meta>
                    <versionId value="3"/>
                    <lastUpdated value="2019-10-29T06:39:31.366+00:00"/>
                    <profile value="http://fhir.ch/ig/ch-emed/StructureDefinition/ch-emed-medicationstatement"/>
                </meta>
                <status value="completed"/>
                <medicationReference>
                    <reference value="Medication/Norvasc"/>
                </medicationReference>
                <subject>
                    <reference value="Patient/MonikaWegmueller"/>
                </subject>
                <reasonCode>
                    <text value="Bluthochdruck"/>
                </reasonCode>
                <dosage>
                    <text value="2x t辰glich eine Tablette morgens und abends einnehmen"/>
                    <timing>
                        <repeat>
                            <boundsPeriod>
                                <start value="2012-02-04"/>
                            </boundsPeriod>
                            <when value="ACM"/>
                            <when value="ACV"/>
                        </repeat>
                    </timing>
                    <route>
                        <coding>
                            <system value="urn:oid:0.4.0.127.0.16.1.1.2.1"/>
                            <code value="20053000"/>
                            <display value="Oral use"/>
                        </coding>
                    </route>
                    <doseAndRate>
                        <doseQuantity>
                            <value value="1"/>
                            <unit value="Tablette"/>
                        </doseQuantity>
                    </doseAndRate>
                </dosage>
            </MedicationStatement>
        </resource>
    </entry>
    <entry>
        <fullUrl value="http://test.fhir.ch/r4/Medication/Norvasc"/>
        <resource>
            <Medication xmlns="http://hl7.org/fhir">
                <id value="Norvasc"/>
                <meta>
                    <versionId value="2"/>
                    <lastUpdated value="2019-10-29T06:37:19.994+00:00"/>
                    <profile value="http://fhir.ch/ig/ch-emed/StructureDefinition/ch-emed-medication-medicationrequest"/>
                </meta>
                <code>
                    <coding>
                        <system value="urn:oid:2.51.1.1"/>
                        <code value="7680500440334"/>
                        <display value="NORVASC Tabl 10 mg"/>
                    </coding>
                    <text value="NORVASC"/>
                </code>
                <form>
                    <coding>
                        <system value="urn:oid:0.4.0.127.0.16.1.1.2.1"/>
                        <code value="10219000"/>
                        <display value="Tablet"/>
                    </coding>
                </form>
                <amount>
                    <numerator>
                        <value value="30"/>
                        <unit value="tablets"/>
                        <system value="http://unitsofmeasure.org"/>
                        <code value="1"/>
                    </numerator>
                    <denominator>
                        <value value="1"/>
                        <system value="http://terminology.hl7.org/CodeSystem/medicationknowledge-package-type"/>
                        <code value="pkt"/>
                    </denominator>
                </amount>
                <ingredient>
                    <itemCodeableConcept>
                        <coding>
                            <system value="urn:oid:2.16.840.1.113883.6.73"/>
                            <code value="C08CA01"/>
                            <display value="amlodipine"/>
                        </coding>
                        <text value="Amlodipine"/>
                    </itemCodeableConcept>
                    <strength>
                        <numerator>
                            <value value="10"/>
                            <unit value="mg"/>
                            <system value="http://unitsofmeasure.org"/>
                            <code value="mg"/>
                        </numerator>
                        <denominator>
                            <value value="1"/>
                            <unit value="tablets"/>
                            <system value="http://unitsofmeasure.org"/>
                            <code value="1"/>
                        </denominator>
                    </strength>
                </ingredient>
            </Medication>
        </resource>
    </entry>
    <entry>
        <fullUrl value="http://test.fhir.ch/r4/Medication/Beloczok"/>
        <resource>
            <Medication xmlns="http://hl7.org/fhir">
                <id value="Beloczok"/>
                <meta>
                    <versionId value="1"/>
                    <lastUpdated value="2019-10-29T06:37:14.898+00:00"/>
                    <profile value="http://fhir.ch/ig/ch-emed/StructureDefinition/ch-emed-medication-medicationdispense"/>
                </meta>
                <code>
                    <coding>
                        <system value="urn:oid:2.51.1.1"/>
                        <code value="7680521101306"/>
                        <display value="BELOC ZOK Ret Tabl 50 mg 30 Stk"/>
                    </coding>
                    <text value="BELOC ZOK Ret Tabl 50 mg"/>
                </code>
                <form>
                    <coding>
                        <system value="urn:oid:0.4.0.127.0.16.1.1.2.1"/>
                        <code value="10219000"/>
                        <display value="Tablet"/>
                    </coding>
                </form>
                <amount>
                    <numerator>
                        <value value="30"/>
                        <unit value="tbl"/>
                        <system value="http://unitsofmeasure.org"/>
                        <code value="tbl"/>
                    </numerator>
                    <denominator>
                        <value value="1"/>
                        <system value="http://terminology.hl7.org/CodeSystem/medicationknowledge-package-type"/>
                        <code value="pkt"/>
                    </denominator>
                </amount>
                <ingredient>
                    <itemCodeableConcept>
                        <coding>
                            <system value="urn:oid:2.16.840.1.113883.6.73"/>
                            <code value="C07AB02"/>
                            <display value="Metoprolol"/>
                        </coding>
                        <text value="Metoprolol"/>
                    </itemCodeableConcept>
                    <strength>
                        <numerator>
                            <value value="50"/>
                            <unit value="mg"/>
                            <system value="http://unitsofmeasure.org"/>
                            <code value="mg"/>
                        </numerator>
                        <denominator>
                            <value value="1"/>
                            <unit value="tbl"/>
                            <system value="http://unitsofmeasure.org"/>
                            <code value="{tbl}"/>
                        </denominator>
                    </strength>
                </ingredient>
            </Medication>
        </resource>
    </entry>
</Bundle>