<Bundle xmlns="http://hl7.org/fhir">
   <id value="chmed16af-mp-chemed-mc"/>
   <meta>
      <lastUpdated value="2019-05-29T15:00:54.948+02:00"/>
      <profile value="http://fhir.ch/ig/ch-emed/StructureDefinition/ch-emed-document-medicationcard"/>
   </meta>
   <identifier>
      <system value="urn:ietf:rfc:3986"/>
      <value value="urn:uuid:8a1d50f3-3f0c-471d-954d-dca1182dbcf3"/>
   </identifier>
   <type value="document"/>
   <timestamp value="2019-05-29T15:00:54.948+02:00"/>
   <entry>
      <fullUrl value="http://test.fhir.ch/r4/Composition/3"/>
      <resource>
         <Composition xmlns="http://hl7.org/fhir">
            <id value="3"/>
            <meta>
               <versionId value="1"/>
               <lastUpdated value="2019-05-29T14:58:58.181+02:00"/>
               <profile value="http://fhir.ch/ig/ch-emed/StructureDefinition/ch-emed-composition-medicationcard"/>
            </meta>
            <text>
               <status value="generated"/>
               <div xmlns="http://www.w3.org/1999/xhtml">MedicationPlan </div>
            </text>
            <!--
            <extension url="http://chmed16af.emediplan.ch/fhir/StructureDefinition/chmed16af-privatefield">
               <extension url="name">
                  <valueString value="PrivateFieldNameSample1"/>
               </extension>
               <extension url="value">
                  <valueString value="PrivateFieldValueSample1"/>
               </extension>
            </extension>
            -->
            <!--
            <extension url="http://chmed16af.emediplan.ch/fhir/StructureDefinition/chmed16af-receiver">
               <valueReference>
                  <reference value="Practitioner/9"/>
               </valueReference>
            </extension>
            -->
            <identifier>
               <system value="http://emediplan.ch/chmed16af/id"/>
               <value value="26d3dff7-ab05-4737-a49c-5eccd33595f6"/>
            </identifier>
            <status value="final"/>
            <type>
               <coding>
                  <system value="http://loinc.org"/>
                  <code value="56445-0"/>
                  <display value="Medication summary Doc"/>
               </coding>
            </type>
            <subject>
               <reference value="Patient/7"/>
            </subject>
            <date value="2016-09-12T11:46:09+02:00"/>
            <author>
               <reference value="Practitioner/9"/>
            </author>
            <title value="Medikationsplan"/>
            <!--
            <attester>
               <mode value="professional"/>
               <time value="2016-09-12T11:46:09+02:00"/>
               <party>
                  <reference value="Practitioner/9"/>
               </party>
            </attester>
            -->
            <!-- custodian fehlt -->
            <section>
               <title value="Medikamentenliste"/>
               <code>
                  <coding>
                     <system value="http://loinc.org"/>
                     <code value="10160-0"/>
                     <display value="Hx of Medication use"/>
                  </coding>
               </code>
               <entry>
                  <reference value="MedicationStatement/11"/>
               </entry>
               <entry>
                  <reference value="MedicationStatement/12"/>
               </entry>
               <entry>
                  <reference value="MedicationStatement/13"/>
               </entry>
               <entry>
                  <reference value="MedicationStatement/14"/>
               </entry>
               <entry>
                  <reference value="MedicationStatement/21"/>
               </entry>
            </section>
            <!--
            <section>
               <title value="Gesundheitsbelange"/>
               <code>
                  <coding>
                     <system value="http://loinc.org"/>
                     <code value="75310-3"/>
                     <display value="Health Concerns"/>
                  </coding>
               </code>
               <entry>
                  <reference value="Observation/24"/>
               </entry>
               <entry>
                  <reference value="Observation/23"/>
               </entry>
               <entry>
                  <reference value="Observation/25"/>
               </entry>
               <entry>
                  <reference value="Observation/26"/>
               </entry>
               <entry>
                  <reference value="Observation/27"/>
               </entry>
               <entry>
                  <reference value="Condition/28"/>
               </entry>
               <entry>
                  <reference value="Condition/29"/>
               </entry>
               <entry>
                  <reference value="Condition/30"/>
               </entry>
               <entry>
                  <reference value="Condition/31"/>
               </entry>
               <entry>
                  <reference value="Condition/32"/>
               </entry>
               <entry>
                  <reference value="Condition/33"/>
               </entry>
            </section>
            -->
            <section>
               <title value="Kommentar"/>
               <code>
                  <coding>
                     <system value="http://loinc.org"/>
                     <code value="48767-8"/>
                     <display value="Annotation comment Imp"/>
                  </coding>
               </code>
               <text>
                  <status value="additional"/>
                  <div xmlns="http://www.w3.org/1999/xhtml"> Bemerkung </div>
               </text>
            </section>
         </Composition>
      </resource>
   </entry>
   <entry>
      <fullUrl value="http://test.fhir.ch/r4/Patient/7"/>
      <resource>
         <Patient xmlns="http://hl7.org/fhir">
            <id value="7"/>
            <meta>
               <versionId value="1"/>
               <lastUpdated value="2019-05-29T14:58:58.181+02:00"/>
               <profile value="http://fhir.ch/ig/ch-core/StructureDefinition/ch-core-patient"/>
            </meta>
            <text>
               <status value="generated"/>
               <div xmlns="http://www.w3.org/1999/xhtml">Maxima, Matter, geb 1981-01-12 </div>
            </text>
            <identifier>
               <system value="urn:oid:2.16.756.5.30.1.123.100.1.1.1"/>
               <value value="vekano"/>
            </identifier>
            <name>
               <family value="Matter"/>
               <given value="Maxima"/>
            </name>
            <telecom>
               <system value="phone"/>
               <value value="+41588512600"/>
               <use value="home"/>
            </telecom>
            <gender value="female"/>
            <birthDate value="1981-01-12"/>
            <address>
               <line value="Untermattweg 8"/>
               <city value="Bern"/>
               <postalCode value="3027"/>
            </address>
            <communication>
               <language>
                  <coding>
                     <system value="urn:ietf:bcp:47"/>
                     <code value="de-CH"/>
                     <display value="German (Region=Switzerland)"/>
                  </coding>
               </language>
               <preferred value="true"/>
            </communication>
         </Patient>
      </resource>
   </entry>
   <entry>
      <fullUrl value="http://test.fhir.ch/r4/Practitioner/9"/>
      <resource>
         <Practitioner xmlns="http://hl7.org/fhir">
            <id value="9"/>
            <meta>
               <versionId value="1"/>
               <lastUpdated value="2019-05-29T14:58:58.181+02:00"/>
               <profile value="http://fhir.ch/ig/ch-core/StructureDefinition/ch-core-practitioner"/>
            </meta>
            <text>
               <status value="generated"/>
               <div xmlns="http://www.w3.org/1999/xhtml">
                  <p>Thomas Wälti </p>
               </div>
            </text>
            <identifier>
               <use value="official"/>
               <system value="urn:oid:2.51.1.3"/>
               <value value="7601003178999"/>
            </identifier>
            <identifier>
               <use value="official"/>
               <system value="urn:oid:2.16.756.5.30.1.123.100.2.1.1"/>
               <value value="ZSR"/>
            </identifier>
            <name>
               <family value="Wälti"/>
               <given value="Thomas"/>
            </name>
         </Practitioner>
      </resource>
   </entry>
   <entry>
      <fullUrl value="http://test.fhir.ch/r4/MedicationStatement/11"/>
      <resource>
         <MedicationStatement xmlns="http://hl7.org/fhir">
            <id value="11"/>
            <meta>
               <versionId value="1"/>
               <lastUpdated value="2019-05-29T14:58:58.181+02:00"/>
               <profile value="http://fhir.ch/ig/ch-emed/StructureDefinition/ch-emed-medicationstatement"/>
            </meta>
            <text>
               <status value="generated"/>
               <div xmlns="http://www.w3.org/1999/xhtml">ROACCUTAN Kaps 10 mg 30 Stk gegen Akne	bei Bedarf ab  12.9.2016 </div>
            </text>
            <!--
            <contained>
               <Medication xmlns="http://hl7.org/fhir">
                  <id value="cont1"/>
                  <code>
                     <coding>
                        <system value="urn:oid:2.51.1.1"/>
                        <code value="7680453070343"/>
                        <display value="ROACCUTAN Kaps 10 mg 30 Stk"/>
                     </coding>
                  </code>
               </Medication>
            </contained>
            -->
            <status value="active"/>
            <medicationReference>
               <reference value="Medication/Content1"/>
            </medicationReference>
            <subject>
               <reference value="Patient/7"/>
            </subject>
            <informationSource>
               <reference value="Practitioner/9"/>
            </informationSource>
            <reasonCode>
               <text value="Akne"/>
            </reasonCode>
            <note>
               <text value="-"/>
            </note>
            <dosage>
               <text value="TBD"/>
               <timing>
                  <repeat>
                     <boundsPeriod>
                        <start value="2016-09-12"/>
                        <end value="2020-09-12"/>
                     </boundsPeriod>
                     <when value="PCM"/>
                  </repeat>
               </timing>
               <asNeededBoolean value="true"/>
               <route>
                  <coding>
                     <system value="urn:oid:0.4.0.127.0.16.1.1.2.1"/>
                     <code value="20053000"/>
                     <display value="Oral use"/>
                  </coding>
               </route>
               <doseAndRate>
                  <doseQuantity>
                     <value value="1"/>
                     <unit value="Stk"/>
                     <!--
                     <system value="http://chmed16af.emediplan.ch/fhir/CodeSystem/chmed16af-codesystem-cdtyp9"/>
                     <code value="Stk"/>
                     -->
                  </doseQuantity>
               </doseAndRate>
            </dosage>
         </MedicationStatement>
      </resource>
   </entry>
   <entry>
      <fullUrl value="http://test.fhir.ch/r4/MedicationStatement/12"/>
      <resource>
         <MedicationStatement xmlns="http://hl7.org/fhir">
            <id value="12"/>
            <meta>
               <versionId value="1"/>
               <lastUpdated value="2019-05-29T14:58:58.181+02:00"/>
               <profile value="http://fhir.ch/ig/ch-emed/StructureDefinition/ch-emed-medicationstatement"/>
            </meta>
            <text>
               <status value="generated"/>
               <div xmlns="http://www.w3.org/1999/xhtml"> ASPIRIN CARDIO Filmtabl 100 mg 28 Stk 0-1-0-0 ab 10.2.2016 </div>
            </text>
            <!--
            <contained>
               <Medication xmlns="http://hl7.org/fhir">
                  <id value="cont2"/>
                  <code>
                     <coding>
                        <system value="urn:oid:2.51.1.1"/>
                        <code value="7680517950680"/>
                        <display value="ASPIRIN CARDIO Filmtabl 100 mg 28 Stk"/>
                     </coding>
                  </code>
               </Medication>
            </contained>
            -->
            <status value="active"/>
            <medicationReference>
               <reference value="Medication/Content2"/>
            </medicationReference>
            <subject>
               <reference value="Patient/7"/>
            </subject>
            <informationSource>
               <reference value="Practitioner/9"/>
            </informationSource>
            <reasonCode>
               <text value="Blutverdünnung"/>
            </reasonCode>
            <dosage>
               <text value="TBD"/>
               <timing>
                  <repeat>
                     <boundsPeriod>
                        <start value="2016-09-12"/>
                        <end value="2020-09-12"/>
                     </boundsPeriod>
                     <when value="PCM"/>
                  </repeat>
               </timing>
               <route>
                  <coding>
                     <system value="urn:oid:0.4.0.127.0.16.1.1.2.1"/>
                     <code value="20053000"/>
                     <display value="Oral use"/>
                  </coding>
               </route>
               <doseAndRate>
                  <doseQuantity>
                     <value value="1"/>
                     <unit value="Stk"/>
                     <!--
                     <system value="http://chmed16af.emediplan.ch/fhir/CodeSystem/chmed16af-codesystem-cdtyp9"/>
                     <code value="Stk"/>
                     -->
                  </doseQuantity>
               </doseAndRate>
            </dosage>
         </MedicationStatement>
      </resource>
   </entry>
   <entry>
      <fullUrl value="http://test.fhir.ch/r4/MedicationStatement/13"/>
      <resource>
         <MedicationStatement xmlns="http://hl7.org/fhir">
            <id value="13"/>
            <meta>
               <versionId value="1"/>
               <lastUpdated value="2019-05-29T14:58:58.181+02:00"/>
               <profile value="http://fhir.ch/ig/ch-emed/StructureDefinition/ch-emed-medicationstatement"/>
            </meta>
            <text>
               <status value="generated"/>
               <div xmlns="http://www.w3.org/1999/xhtml"> BELOC ZOK Ret Tabl 25 mg 30 Stk - 1-0-1-0 ab 2.10.2016 </div>
            </text>
            <!--
            <contained>
               <Medication xmlns="http://hl7.org/fhir">
                  <id value="cont3"/>
                  <code>
                     <coding>
                        <system value="urn:oid:2.51.1.1"/>
                        <code value="7680521101573"/>
                        <display value="BELOC ZOK Ret Tabl 25 mg 30 Stk"/>
                     </coding>
                  </code>
               </Medication>
            </contained>
            -->
            <status value="active"/>
            <medicationReference>
               <reference value="Medication/Content3"/>
            </medicationReference>
            <subject>
               <reference value="Patient/7"/>
            </subject>
            <informationSource>
               <reference value="Practitioner/9"/>
            </informationSource>
            <reasonCode>
               <text value="Bluthochdruck/Herz"/>
            </reasonCode>
            <dosage>
               <text value="TBD"/>
               <timing>
                  <repeat>
                     <boundsPeriod>
                        <start value="2016-02-10"/>
                     </boundsPeriod>
                     <when value="PCM"/>
                     <when value="PCV"/>
                  </repeat>
               </timing>
               <route>
                  <coding>
                     <system value="urn:oid:0.4.0.127.0.16.1.1.2.1"/>
                     <code value="20053000"/>
                     <display value="Oral use"/>
                  </coding>
               </route>
               <doseAndRate>
                  <doseQuantity>
                     <value value="1"/>
                     <unit value="Stk"/>
                     <!--
                     <system value="http://chmed16af.emediplan.ch/fhir/CodeSystem/chmed16af-codesystem-cdtyp9"/>
                     <code value="Stk"/>
                     -->
                  </doseQuantity>
               </doseAndRate>
            </dosage>
         </MedicationStatement>
      </resource>
   </entry>
   <entry>
      <fullUrl value="http://test.fhir.ch/r4/MedicationStatement/14"/>
      <resource>
         <MedicationStatement xmlns="http://hl7.org/fhir">
            <id value="14"/>
            <meta>
               <versionId value="1"/>
               <lastUpdated value="2019-05-29T14:58:58.181+02:00"/>
               <profile value="http://fhir.ch/ig/ch-emed/StructureDefinition/ch-emed-medicationstatement"/>
            </meta>
            <text>
               <status value="generated"/>
               <div xmlns="http://www.w3.org/1999/xhtml">ZOCOR Filmtabl 20 mg 28 Stk - 0-0-1-0 ab 2.10.2016 </div>
            </text>
            <!--
            <contained>
               <Medication xmlns="http://hl7.org/fhir">
                  <id value="cont4"/>
                  <code>
                     <coding>
                        <system value="urn:oid:2.51.1.1"/>
                        <code value="7680497420456"/>
                        <display value="ZOCOR Filmtabl 20 mg 28 Stk"/>
                     </coding>
                  </code>
               </Medication>
            </contained>
            -->
            <status value="active"/>
            <medicationReference>
               <reference value="Medication/Content4"/>
            </medicationReference>
            <subject>
               <reference value="Patient/7"/>
            </subject>
            <informationSource>
               <reference value="Practitioner/9"/>
            </informationSource>
            <reasonCode>
               <text value="Cholesterinsenker"/>
            </reasonCode>
            <dosage>
               <text value="TBD"/>
               <timing>
                  <repeat>
                     <boundsPeriod>
                        <start value="2016-02-10"/>
                     </boundsPeriod>
                     <when value="PCV"/>
                  </repeat>
               </timing>
               <route>
                  <coding>
                     <system value="urn:oid:0.4.0.127.0.16.1.1.2.1"/>
                     <code value="20053000"/>
                     <display value="Oral use"/>
                  </coding>
               </route>
               <doseAndRate>
                  <doseQuantity>
                     <value value="1"/>
                     <unit value="Stk"/>
                     <!--
                     <system value="http://chmed16af.emediplan.ch/fhir/CodeSystem/chmed16af-codesystem-cdtyp9"/>
                     <code value="Stk"/>
                     -->
                  </doseQuantity>
               </doseAndRate>
            </dosage>
         </MedicationStatement>
      </resource>
   </entry>
   <entry>
      <fullUrl value="http://test.fhir.ch/r4/MedicationStatement/21"/>
      <resource>
         <MedicationStatement xmlns="http://hl7.org/fhir">
            <id value="21"/>
            <meta>
               <versionId value="1"/>
               <lastUpdated value="2019-05-29T14:58:58.181+02:00"/>
               <profile value="http://fhir.ch/ig/ch-emed/StructureDefinition/ch-emed-medicationstatement"/>
            </meta>
            <text>
               <status value="generated"/>
               <div xmlns="http://www.w3.org/1999/xhtml"> MORPHIN HCL Amino Inj Lös 20 mg/ml		Prd-Nr. 28537 
                  <br/>
Start	 08:00 Uhr 
                  <br/>
Ende	 12:00 Uhr 
                  <br/>
Dosis jede Stunde 50 ml erhöhen 
                  <br/>
CHMED16A0 {	&quot;Patient&quot;: {		&quot;FName&quot;: &quot;Dora&quot;,		&quot;LName&quot;: &quot;Graber&quot;,		&quot;BDt&quot;: &quot;1945-11-23&quot;,		&quot;Gender&quot;: 2,		&quot;Lng&quot;: &quot;de&quot;,		&quot;Med&quot;: {			&quot;DLstMen&quot;: &quot;&quot;,			&quot;Prem&quot;: 0,			&quot;Rc&quot;: [{					&quot;Id&quot;: 4				}, {					&quot;Id&quot;: 2				}, {					&quot;Id&quot;: 1				}, {					&quot;Id&quot;: 3				}, {					&quot;Id&quot;: 6,					&quot;R&quot;: [571]				}, {					&quot;Id&quot;: 7,					&quot;R&quot;: [9999]				}			],			&quot;Meas&quot;: [{					&quot;Type&quot;: 1,					&quot;Val&quot;: &quot;93&quot;,					&quot;Unit&quot;: 2				}, {					&quot;Type&quot;: 2,					&quot;Val&quot;: &quot;165&quot;,					&quot;Unit&quot;: 1				}			]		}	},	&quot;Medicaments&quot;: [{			&quot;Id&quot;: &quot;1176325&quot;,			&quot;IdType&quot;: 4,			&quot;Pos&quot;: [{					&quot;DtFrom&quot;: &quot;2017-09-05&quot;,					&quot;DtTo&quot;: &quot;2017-09-07&quot;,					&quot;CyDu&quot;: 604800,					&quot;InRes&quot;: 0,					&quot;TT&quot;: [{							&quot;Off&quot;: 28800,							&quot;Du&quot;: 14400,							&quot;DoFrom&quot;: 50.0,							&quot;DoTo&quot;: 200.0						}					]				}			],			&quot;Unit&quot;: &quot;ML&quot;,			&quot;Rep&quot;: 0,			&quot;Subs&quot;: 0,			&quot;NbPack&quot;: 1		}	],	&quot;PFields&quot;: [],	&quot;MedType&quot;: 1,	&quot;Dt&quot;: &quot;2017-09-05T03:21:25+02:00&quot;} 
               </div>
            </text>
            <!--
            <contained>
               <Medication xmlns="http://hl7.org/fhir">
                  <id value="cont1"/>
                  <code>
                     <coding>
                        <system value="urn:oid:2.51.1.1"/>
                        <code value="7680565130034"/>
                        <display value="MORPHIN HCL Amino Inj Lös 20 mg/ml"/>
                     </coding>
                  </code>
               </Medication>
            </contained>
            -->
            <status value="active"/>
            <medicationReference>
               <reference value="Medication/Content1"/>
            </medicationReference>
            <subject>
               <reference value="Patient/7"/>
            </subject>
            <informationSource>
               <reference value="Practitioner/9"/>
            </informationSource>
            <reasonCode>
               <text value="Blutverdünnung"/>
            </reasonCode>
            <dosage>
               <sequence value="1"/>
               <text value="TBD"/>
               <timing>
                  <repeat>
                     <count value="1"/>
                     <duration value="14400"/>
                     <durationUnit value="s"/>
                     <timeOfDay value="08:00:00"/>
                  </repeat>
               </timing>
               <route>
                  <coding>
                     <system value="urn:oid:0.4.0.127.0.16.1.1.2.1"/>
                     <code value="20045000"/>
                     <display value="Intravenous use"/>
                  </coding>
               </route>
               <doseAndRate>
                  <doseQuantity>
                     <!--
                     <extension url="http://chmed16af.emediplan.ch/fhir/StructureDefinition/chmed16af-dosequantityto">
                        <valueQuantity>
                           <value value="200"/>
                           <unit value="ml"/>
                           <system value="http://chmed16af.emediplan.ch/fhir/CodeSystem/chmed16af-codesystem-cdtyp9"/>
                           <code value="ml"/>
                        </valueQuantity>
                     </extension>
                     -->
                     <value value="50"/>
                     <unit value="ml"/>
                     <!--
                     <system value="http://chmed16af.emediplan.ch/fhir/CodeSystem/chmed16af-codesystem-cdtyp9"/>
                     <code value="ml"/>
                     -->
                  </doseQuantity>
               </doseAndRate>
            </dosage>
         </MedicationStatement>
      </resource>
   </entry>
   <entry>
      <fullUrl value="http://test.fhir.ch/r4/Medication/Content1"/>
      <resource>
         <Medication xmlns="http://hl7.org/fhir">
            <id value="Content1"/>
            <meta>
               <versionId value="1"/>
               <lastUpdated value="2019-05-29T14:58:58.181+02:00"/>
               <profile value="http://fhir.ch/ig/ch-emed/StructureDefinition/ch-emed-medication-medicationrequest"/>
            </meta>
            <code>
               <coding>
                  <system value="urn:oid:2.51.1.1"/>
                  <code value="7680453070343"/>
                  <display value="ROACCUTAN Kaps 10 mg 30 Stk"/>
               </coding>
               <text value="ROACCUTAN Kaps 10 mg 30 Stk"/>
            </code>
            <form>
               <coding>
                  <system value="urn:oid:0.4.0.127.0.16.1.1.2.1"/>
                  <code value="10210000"/>
                  <!-- not sure if correct -->
                  <display value="Capsule, hard"/>
               </coding>
            </form>
            <amount>
               <numerator>
                  <value value="30"/>
                  <unit value="Capsule"/>
                  <system value="http://unitsofmeasure.org"/>
                  <code value="1"/>
               </numerator>
               <denominator>
                  <value value="1"/>
                  <system value="http://terminology.hl7.org/CodeSystem/medicationknowledge-package-type"/>
                  <code value="pkt"/>
               </denominator>
            </amount>
            <ingredient>               <!-- TBD: it is not correct for this medication-->
               <itemCodeableConcept>
                  <coding>
                     <system value="urn:oid:2.16.840.1.113883.6.73"/>
                     <code value="C07AB02"/>
                     <display value="Metoprolol"/>
                  </coding>
                  <text value="Metoprolol"/>
               </itemCodeableConcept>
               <strength>
                  <numerator>
                     <value value="50"/>
                     <unit value="milligram"/>
                     <system value="http://unitsofmeasure.org"/>
                     <code value="mg"/>
                  </numerator>
                  <denominator>
                     <value value="1"/>
                     <unit value="tablets"/>
                     <system value="http://unitsofmeasure.org"/>
                     <code value="1"/>
                  </denominator>
               </strength>
            </ingredient>
         </Medication>
      </resource>
   </entry>
   <!-- TBD: entry for Medication/Content2 -->
   <!-- TBD: entry for Medication/Content3 -->
   <!-- TBD: entry for Medication/Content4 -->
</Bundle>